Folder: oleg-nik.com/assets/projects/EngrStress

File: Specimen_RawData_1_2.csv
Time (s),Extension (mm),Load (N),Tensile strain (mm/mm)
0,-0.00081,3.04628,0
1.3,0.10787,673.898,0.00002
2.6,0.216,1161.18,0.00009
3.9,0.32419,1707.04,0.00015
5.2,0.43262,2305.11,0.00022
6.5,0.54106,2949.7,0.00031
7.8,0.64931,3630.32,0.0004
9.1,0.75781,4356.66,0.0005
10.4,0.86625,5115.85,0.0006
11.7,0.97437,5901.9,0.00071
13,1.08256,6710.3,0.00084
14.3,1.19106,7526.19,0.00101
15.6,1.29944,8203.35,0.00179
16.9,1.40762,8007.14,0.00765
18.2,1.51575,7982.5,0.0123
19.5,1.62437,7656.75,0.01475
20.8,1.73287,7584.11,0.01561
22.1,1.84119,7600.26,0.01633
23.4,1.94937,7664.52,0.01729
24.7,2.05787,7734.57,0.01754
26,2.16619,7725.59,0.01753
27.3,2.27425,7840.26,0.01769
28.6,2.38269,7882.75,0.01809
29.9,2.49094,8055.97,0.01864
31.2,2.59937,8193.5,0.01958
32.37,2.64944,7949.11,0.02002
33.67,2.649,7830.63,0.02002
34.97,2.649,7786.53,0.02002
36.27,2.649,7758.92,0.02002
37.57,2.649,7739.77,0.02002
38.87,2.649,7724.81,0.02002
40.17,2.649,7713.25,0.02002
41.47,2.649,7703.65,0.02002
42.77,2.649,7695.45,0.02002
44.07,2.649,7688.45,0.02002
45.37,2.649,7681.82,0.02002
46.67,2.649,7675.69,0.02002
47.97,2.649,7670.12,0.02002
49.27,2.649,7666.5,0.02002
50.57,2.649,7662.62,0.02002
51.87,2.649,7659.4,0.02002
53.17,2.649,7655.74,0.02002
54.47,2.649,7652.47,0.02002
55.77,2.649,7649.78,0.02002
56.954,2.66962,8029.83,0.02018
58.254,2.77869,8394.27,0.02104
59.554,2.887,8497.66,0.02189
60.854,2.99562,8610.75,0.02275
62.154,3.10387,8714.3,0.0236
63.454,3.21194,8814.89,0.02445
64.754,3.32044,8911.96,0.02531
66.054,3.42875,9005.29,0.02616
67.354,3.53712,9099.62,0.02701
68.654,3.64506,9182.5,0.02786
69.954,3.75369,9272.51,0.02872
71.254,3.86212,9356.87,0.02957
72.554,3.9705,9442.63,0.03043
73.854,4.07875,9517.71,0.03128
75.154,4.187,9594.56,0.03213
76.454,4.29562,9673.66,0.03299
77.754,4.40362,9742.67,0.03384
79.054,4.51206,9812.1,0.03469
80.354,4.62031,9877.14,0.03554
81.654,4.72869,9946.58,0.0364
82.954,4.83681,10006,0.03725
84.254,4.94519,10067.1,0.0381
85.554,5.05394,10129.5,0.03896
86.854,5.16219,10187.9,0.03981
88.154,5.27044,10246.4,0.04066
89.454,5.37875,10300.4,0.04151
90.754,5.48706,10357.1,0.04237
92.054,5.5955,10410,0.04322
93.354,5.70356,10455.8,0.04407
94.654,5.81194,10506.1,0.04493
95.954,5.92025,10552.9,0.04578
97.254,6.02869,10601.4,0.04663
98.554,6.13706,10643.2,0.04749
99.854,6.2455,10692.3,0.04834
101.154,6.35394,10737.6,0.04919
102.454,6.46187,10777.2,0.05004
103.754,6.57037,10819.1,0.0509
105.054,6.67887,10858.2,0.05175
106.354,6.78712,10897.7,0.0526
107.654,6.89512,10929.2,0.05345
108.954,7.00362,10966,0.05431
110.254,7.11212,11001.2,0.05516
111.554,7.22037,11037,0.05602
112.854,7.32875,11068.8,0.05687
114.154,7.43712,11100.6,0.05772
115.454,7.54562,11137.4,0.05858
116.754,7.65381,11165.2,0.05943
118.054,7.76187,11192.8,0.06028
119.354,7.87037,11221.2,0.06113
120.654,7.97856,11250.6,0.06199
121.954,8.08681,11277.2,0.06284
123.254,8.19531,11302.1,0.06369
124.554,8.30394,11330.9,0.06455
125.854,8.41225,11356,0.0654
127.154,8.52031,11380.7,0.06625
128.454,8.62881,11404.9,0.06711
129.754,8.737,11430.1,0.06796
131.054,8.8455,11456.2,0.06881
132.354,8.95356,11470.5,0.06966
133.654,9.06194,11495.3,0.07052
134.954,9.17031,11513.8,0.07137
136.254,9.27862,11534.75,0.07222
137.554,9.38712,11552.9,0.07308
138.854,9.4955,11574.8,0.07393
140.154,9.60387,11597.2,0.07478
141.454,9.71194,11612.8,0.07563
142.754,9.82037,11631.9,0.07649
144.054,9.92887,11647.5,0.07734
145.354,10.03706,11664.4,0.07819
146.654,10.14512,11677.1,0.07905
147.954,10.25356,11692.4,0.0799
149.254,10.36219,11711.5,0.08075
150.554,10.4705,11727.2,0.08161
151.854,10.57869,11739.8,0.08246
153.154,10.68719,11754.1,0.08331
154.454,10.79544,11770.7,0.08417
155.754,10.90375,11784.9,0.08502
157.054,11.01187,11793.8,0.08587
158.354,11.12043,11808.6,0.08672
159.654,11.22869,11820.5,0.08758
160.954,11.33675,11831.2,0.08843
162.254,11.44537,11842.1,0.08928
163.554,11.55381,11852.5,0.09014
164.854,11.66231,11867.3,0.09099
166.154,11.77031,11875.3,0.09184
167.454,11.87881,11888.6,0.0927
168.754,11.98712,11898.8,0.09355
170.054,12.09544,11911.2,0.0944
171.354,12.20356,11914.9,0.09525
172.654,12.31181,11924.4,0.09611
173.954,12.42031,11933.875,0.09696
175.254,12.52862,11941.7,0.09781
176.554,12.63712,11950.6,0.09867
177.854,12.74562,11961,0.09952
179.154,12.85387,11971.6,0.10037
180.454,12.962,11977.4,0.10123
181.754,13.07025,11984,0.10208
183.054,13.17894,11993.4,0.10293
184.354,13.287,11997.6,0.10378
185.654,13.39519,12003.8,0.10464
186.954,13.50362,12008.3,0.10549
188.254,13.61206,12017.8,0.10634
189.554,13.7205,12025.2,0.1072
190.854,13.82862,12027.7,0.10805
192.154,13.93719,12037,0.1089
193.454,14.0455,12043.5,0.10976
194.754,14.15381,12051,0.11061
196.054,14.262,12051.9,0.11146
197.354,14.37031,12057,0.11231
198.654,14.47875,12063.2,0.11317
199.954,14.58669,12064.9,0.11402
201.254,14.69537,12071.1,0.11487
202.554,14.80381,12073.8,0.11573
203.854,14.91225,12082.1,0.11658
205.154,15.02037,12083.7,0.11743
206.454,15.12868,12089.8,0.11829
207.754,15.23712,12094.6,0.11914
209.054,15.34537,12099.3,0.11999
210.354,15.45362,12100,0.12084
211.654,15.56187,12101.4,0.1217
212.954,15.67037,12107,0.12255
214.254,15.77868,12108.5,0.1234
215.554,15.887,12110.9,0.12426
216.854,15.99556,12115.6,0.12511
218.154,16.10375,12119.9,0.12596
219.454,16.212,12123.6,0.12682
220.754,16.32037,12124.6,0.12767
222.054,16.42893,12129.1,0.12852
223.354,16.53712,12128.8,0.12938
224.654,16.64506,12128.5,0.13023
225.954,16.75368,12129.9,0.13108
227.254,16.862,12132.3,0.13193
228.554,16.9705,12138.3,0.13279
229.854,17.07868,12135.4,0.13364
231.154,17.18719,12140.6,0.13449
232.454,17.29556,12142,0.13535
233.754,17.40368,12143.7,0.1362
235.054,17.512,12142.5,0.13705
236.354,17.62031,12141.5,0.13791
237.654,17.72875,12146.6,0.13876
238.954,17.83675,12143.3,0.13961
240.254,17.94531,12145.9,0.14046
241.554,18.05393,12144.5,0.14132
242.854,18.16212,12146.5,0.14217
244.154,18.27037,12146.8,0.14302
245.454,18.37868,12146.8,0.14388
246.754,18.48712,12150.5,0.14473
248.054,18.59543,12150.3,0.14558
249.354,18.70356,12147.3,0.14643
250.654,18.81194,12145.3,0.14729
251.954,18.92025,12145.6,0.14814
253.254,19.02875,12145.5,0.149
254.554,19.13694,12142.1,0.14985
255.854,19.24568,12147.3,0.1507
257.154,19.35387,12145.8,0.15156
258.454,19.46194,12145.3,0.15241
259.754,19.57037,12142.9,0.15326
261.054,19.67875,12141.6,0.15411
262.354,19.78719,12141.4,0.15497
263.654,19.89506,12135.9,0.15582
264.954,20.00368,12136.8,0.15667
266.254,20.11206,12134.4,0.15753
267.554,20.22043,12136.7,0.15838
268.854,20.32874,12130.9,0.15923
270.154,20.43706,12130,0.16008
271.454,20.54562,12132.4,0.16094
272.754,20.65375,12129.9,0.16179
274.054,20.76193,12126.4,0.16264
275.354,20.87037,12122.1,0.1635
276.654,20.97869,12122.5,0.16435
277.954,21.08681,12116.7,0.1652
279.254,21.19525,12114.9,0.16605
280.554,21.30393,12112.8,0.16691
281.854,21.41225,12111,0.16776
283.154,21.52043,12108.5,0.16861
284.454,21.62875,12104.7,0.16947
285.754,21.73706,12104.5,0.17032
287.054,21.8455,12101.5,0.17117
288.354,21.95343,12092.9,0.17202
289.654,22.06194,12090.4,0.17288
290.954,22.17025,12085.7,0.17373
292.254,22.27875,12084.3,0.17459
293.554,22.38712,12076.9,0.17544
294.854,22.4955,12075.3,0.17629
296.154,22.60387,12072.5,0.17715
297.454,22.71181,12066.8,0.178
298.754,22.82043,12063.4,0.17885
300.054,22.92881,12057,0.1797
301.354,23.03712,12053.8,0.18056
302.654,23.14518,12043.1,0.18141
303.954,23.25356,12037.8,0.18226
305.254,23.36218,12032.4,0.18312
306.554,23.47037,12026.7,0.18397
307.854,23.57874,12019.1,0.18482
309.154,23.68712,12011.2,0.18568
310.454,23.79556,12007.2,0.18653
311.754,23.90381,11998,0.18738
313.054,24.01193,11986.3,0.18823
314.354,24.12037,11975,0.18909
315.654,24.22856,11965.6,0.18994
316.954,24.33681,11953.2,0.19079
318.254,24.44525,11938.2,0.19164
319.554,24.55393,11926.4,0.1925
320.854,24.66231,11910.9,0.19335
322.154,24.77031,11893.5,0.1942
323.454,24.87881,11875,0.19506
324.754,24.987,11853.9,0.19591
326.054,25.09556,11833.3,0.19677
327.354,25.20356,11799.9,0.19762
328.654,25.31193,11771.9,0.19847
329.954,25.42037,11737,0.19932
331.254,25.52856,11700,0.20017
332.554,25.63712,11657.5,0.20103
333.854,25.7455,11615.3,0.20188
335.154,25.85393,11569.7,0.20274
336.454,25.96194,11514.1,0.20359
337.754,26.07037,11458,0.20444
339.054,26.17894,11393.7,0.2053
340.354,26.287,11326.7,0.20615
341.654,26.39518,11251.9,0.207
342.954,26.50356,11174,0.20785
344.254,26.61212,11094.1,0.20871
345.554,26.72043,11004.6,0.20956
346.854,26.82868,10907,0.21041
348.154,26.93718,10802,0.21127
349.454,27.04543,10692.8,0.21212
350.754,27.15375,10570.5,0.21297
352.054,27.26187,10434.3,0.21382
353.354,27.37043,10291.4,0.21468
354.654,27.47868,10131.6,0.21553
355.954,27.58681,9954.61,0.21638
357.254,27.69531,9755.12,0.21724
358.554,27.80375,9530,0.21809
359.854,27.91231,9272.07,0.21894
361.154,28.02031,8952.79,0.21979
362.092,28.10231,-147.975,0.22044